Folder: Gamry-eQCM/exampleFiles

Note: exampleFiles/README.md
# Example output file of the eQCM instrument

File: QCM_RCV_Cu_calibration.DTA
EXPLAIN
TAG	CVEQCM
TITLE	LABEL	Cyclic Voltammetry	Test &Identifier
DATE	LABEL	02/12/2016	Date
TIME	LABEL	11:02:38	Time
APPLICATION	LABEL	Resonator	Data &Acquisition Application
NOTES	NOTES	0	&Notes...
PSTAT	PSTAT	IFC1000-03004	Potentiostat
VINIT	POTEN	-3,00000E-001	F	Initial &E (V)
VLIMIT1	POTEN	-7,00000E-001	F	Scan Limit &1 (V)
VLIMIT2	POTEN	0,00000E+000	F	Scan Limit &2 (V)
VFINAL	POTEN	-3,00000E-001	F	Final &E (V)
SCANRATE	QUANT	5,00000E+001	&Scan Rate (mV/s)
STEPSIZE	QUANT	2,00000E+000	St&ep Size (mV)
CYCLES	IQUANT	5	C&ycles (#)
IMODE	SELECTOR	1	I/E Range &Mode
IRANGE	QUANT	3,00000E+001	&Max Current (mA)
AREA	QUANT	2,09000E-001	Electrode &Area (cm^2)
AREAOVERLAP	QUANT	2,05000E-001	Area of &Overlap (cm^2)
CONDIT	TWOPARAM	F	0,00000E+000	0,00000E+000	Conditionin&g	Time(s)	E(V)
DELAY	TWOPARAM	F	3,00000E+001	0,00000E+000	Init. De&lay	Time(s)	Stab.(mV/s)
EQDELAY	QUANT	5,00000E+000	Equil. &Time (s)
IRCOMP	SELECTOR	0	IRCom&p
PFCOR	QUANT	0,00000E+000	PF Corr. (ohm)
SAMPLINGMODE	SELECTOR	0	Sampling &Mode
EOC	QUANT	0	Open Circuit (V)
PSTATMODEL	IQUANT	48	PstatModel
PSTATSECTION	LABEL	IFC1000-03004	Pstat Section
PSTATSERIALNO	LABEL	03004	Pstat Serial Number
CTRLMODE	IQUANT	1	Control Mode
IESTAB	IQUANT	2	I/E Stability
CASPEED	IQUANT	4	Control Amp Speed
CONVENTION	IQUANT	1	Current Convention
ICHRANGE	IQUANT	2	Ich Range
ICHRANGEMODE	TOGGLE	F	Ich Auto Range
ICHOFFSETENABLE	TOGGLE	F	Ich Offset Enable
ICHOFFSET	QUANT	0,000000	Ich Offset (V)
ICHFILTER	IQUANT	3	Ich Filter
VCHRANGE	IQUANT	2	Vch Range
VCHRANGEMODE	TOGGLE	F	Vch Auto Range
VCHOFFSETENABLE	TOGGLE	F	Vch Offset Enable
VCHOFFSET	QUANT	0,000000	Vch Offset (V)
VCHFILTER	IQUANT	3	Vch Filter
ACHRANGE	IQUANT	2	Ach Range
IERANGELOWERLIMIT	IQUANT	4	I/E Range Lower Limit
IERANGEMODE	TOGGLE	F	I/E AutoRange
IERANGE	IQUANT	11	I/E Range
POSFEEDENABLE	TOGGLE	F	Positive Feedback IR Comp
POSFEEDRESISTANCE	QUANT	0,000000	Positive Feedback Resistance (ohm)
DCCALDATE	LABEL	30.10.2015	DC Calibration Date
ACCALDATE	LABEL	30.10.2015	AC Calibration Date
FRAMEWORKVERSION	QUANT	6.24	Framework Version
CURVE1	TABLE
	Pt	T	Q	Vf	Im	Vu	Sig	ACH	IERange	Over
	#	s	C	V vs. Ref.	A	V	V	V	#	bits
	0	0,040000	7,77691E-006	-3,00559E-001	-2,14826E-004	0,00000E+000	-2,99997E-001	0,00000E+000	11	...........
	7	0,320000	-2,11613E-005	-3,14699E-001	-8,72206E-005	0,00000E+000	-3,14005E-001	0,00000E+000	11	...........
	14	0,600000	-5,23040E-005	-3,28693E-001	-1,36576E-004	0,00000E+000	-3,28001E-001	0,00000E+000	11	...........
	21	0,880000	-1,00272E-004	-3,42699E-001	-1,96900E-004	0,00000E+000	-3,41997E-001	0,00000E+000	11	...........
	28	1,160000	-1,64524E-004	-3,56735E-001	-2,53930E-004	0,00000E+000	-3,56005E-001	0,00000E+000	11	...........
	35	1,440000	-2,44118E-004	-3,70771E-001	-3,07636E-004	0,00000E+000	-3,70001E-001	0,00000E+000	11	...........
	42	1,720000	-3,37963E-004	-3,84843E-001	-3,56492E-004	0,00000E+000	-3,83997E-001	0,00000E+000	11	...........
	49	2,000000	-4,44566E-004	-3,98900E-001	-3,99071E-004	0,00000E+000	-3,98005E-001	0,00000E+000	11	...........
	56	2,280000	-5,61618E-004	-4,12912E-001	-4,32698E-004	0,00000E+000	-4,12001E-001	0,00000E+000	11	...........
	63	2,560000	-6,86896E-004	-4,26998E-001	-4,60403E-004	0,00000E+000	-4,25997E-001	0,00000E+000	11	...........
	70	2,840000	-8,19515E-004	-4,41124E-001	-4,86481E-004	0,00000E+000	-4,40005E-001	0,00000E+000	11	...........
	77	3,120000	-9,59374E-004	-4,55143E-001	-5,13018E-004	0,00000E+000	-4,54001E-001	0,00000E+000	11	...........
	84	3,400000	-1,10721E-003	-4,69230E-001	-5,43476E-004	0,00000E+000	-4,67997E-001	0,00000E+000	11	...........
	91	3,680000	-1,26358E-003	-4,83274E-001	-5,74204E-004	0,00000E+000	-4,82005E-001	0,00000E+000	11	...........
	98	3,960000	-1,42796E-003	-4,97128E-001	-6,00380E-004	0,00000E+000	-4,96001E-001	0,00000E+000	11	...........
	105	4,240000	-1,59856E-003	-5,11003E-001	-6,17290E-004	0,00000E+000	-5,09997E-001	0,00000E+000	11	...........
	112	4,520000	-1,77239E-003	-5,25285E-001	-6,26138E-004	0,00000E+000	-5,24005E-001	0,00000E+000	11	...........
	119	4,800000	-1,94619E-003	-5,39258E-001	-6,19966E-004	0,00000E+000	-5,38001E-001	0,00000E+000	11	...........
	126	5,080000	-2,11691E-003	-5,53199E-001	-6,04786E-004	0,00000E+000	-5,51997E-001	0,00000E+000	11	...........
	133	5,360000	-2,28230E-003	-5,67188E-001	-5,82920E-004	0,00000E+000	-5,66005E-001	0,00000E+000	11	...........
	140	5,640000	-2,44108E-003	-5,81178E-001	-5,58378E-004	0,00000E+000	-5,80001E-001	0,00000E+000	11	...........
	147	5,920000	-2,59314E-003	-5,95144E-001	-5,33682E-004	0,00000E+000	-5,93997E-001	0,00000E+000	11	...........
	154	6,200000	-2,73853E-003	-6,09137E-001	-5,09911E-004	0,00000E+000	-6,08005E-001	0,00000E+000	11	...........
	161	6,480000	-2,87754E-003	-6,22924E-001	-4,87593E-004	0,00000E+000	-6,22001E-001	0,00000E+000	11	...........
	168	6,760000	-3,01072E-003	-6,36906E-001	-4,67708E-004	0,00000E+000	-6,35996E-001	0,00000E+000	11	...........
	175	7,040000	-3,13861E-003	-6,50879E-001	-4,49351E-004	0,00000E+000	-6,50005E-001	0,00000E+000	11	...........
	182	7,320000	-3,26172E-003	-6,64872E-001	-4,33483E-004	0,00000E+000	-6,64001E-001	0,00000E+000	11	...........
	189	7,600000	-3,38044E-003	-6,78930E-001	-4,17726E-004	0,00000E+000	-6,77996E-001	0,00000E+000	11	...........
	196	7,880000	-3,49549E-003	-6,93132E-001	-4,05903E-004	0,00000E+000	-6,92005E-001	0,00000E+000	11	...........
	203	8,160000	-3,60642E-003	-6,95213E-001	-3,88284E-004	0,00000E+000	-6,94004E-001	0,00000E+000	11	...........
	210	8,440000	-3,71207E-003	-6,81154E-001	-3,70191E-004	0,00000E+000	-6,79996E-001	0,00000E+000	11	...........
	217	8,720000	-3,81335E-003	-6,66593E-001	-3,55116E-004	0,00000E+000	-6,66000E-001	0,00000E+000	11	...........
	224	9,000000	-3,91070E-003	-6,52181E-001	-3,42174E-004	0,00000E+000	-6,52004E-001	0,00000E+000	11	...........
	231	9,280000	-4,00461E-003	-6,38123E-001	-3,30052E-004	0,00000E+000	-6,37996E-001	0,00000E+000	11	...........
	238	9,559999	-4,09527E-003	-6,24138E-001	-3,18424E-004	0,00000E+000	-6,24000E-001	0,00000E+000	11	...........
	245	9,840000	-4,18252E-003	-6,10156E-001	-3,06490E-004	0,00000E+000	-6,10004E-001	0,00000E+000	11	...........
	252	10,120000	-4,26650E-003	-5,96737E-001	-2,95487E-004	0,00000E+000	-5,95996E-001	0,00000E+000	11	...........
	259	10,400000	-4,34732E-003	-5,82879E-001	-2,84025E-004	0,00000E+000	-5,82000E-001	0,00000E+000	11	...........
	266	10,679999	-4,42497E-003	-5,69084E-001	-2,72793E-004	0,00000E+000	-5,68004E-001	0,00000E+000	11	...........
	273	10,960000	-4,49922E-003	-5,55246E-001	-2,60685E-004	0,00000E+000	-5,53996E-001	0,00000E+000	11	...........
	280	11,240000	-4,56998E-003	-5,41281E-001	-2,47688E-004	0,00000E+000	-5,40000E-001	0,00000E+000	11	...........
	287	11,520000	-4,63708E-003	-5,27002E-001	-2,34072E-004	0,00000E+000	-5,26004E-001	0,00000E+000	11	...........
	294	11,800000	-4,70051E-003	-5,12583E-001	-2,19761E-004	0,00000E+000	-5,11996E-001	0,00000E+000	11	...........
	301	12,080000	-4,75985E-003	-4,98324E-001	-2,05185E-004	0,00000E+000	-4,98000E-001	0,00000E+000	11	...........
	308	12,360000	-4,81498E-003	-4,84208E-001	-1,89088E-004	0,00000E+000	-4,84004E-001	0,00000E+000	11	...........
	315	12,639999	-4,86569E-003	-4,70159E-001	-1,73824E-004	0,00000E+000	-4,69996E-001	0,00000E+000	11	...........
	322	12,920000	-4,91200E-003	-4,56171E-001	-1,57880E-004	0,00000E+000	-4,56000E-001	0,00000E+000	11	...........
	329	13,200000	-4,95381E-003	-4,42175E-001	-1,42033E-004	0,00000E+000	-4,42005E-001	0,00000E+000	11	...........
	336	13,480000	-4,99117E-003	-4,28168E-001	-1,26387E-004	0,00000E+000	-4,27996E-001	0,00000E+000	11	...........
	343	13,759999	-5,02405E-003	-4,14193E-001	-1,10672E-004	0,00000E+000	-4,14000E-001	0,00000E+000	11	...........
	350	14,040000	-5,05293E-003	-4,00195E-001	-9,65204E-005	0,00000E+000	-4,00005E-001	0,00000E+000	11	...........
	357	14,320000	-5,07815E-003	-3,86385E-001	-8,45794E-005	0,00000E+000	-3,85996E-001	0,00000E+000	11	...........
	364	14,599999	-5,09994E-003	-3,72216E-001	-7,26661E-005	0,00000E+000	-3,72001E-001	0,00000E+000	11	...........
	371	14,880000	-5,11862E-003	-3,58210E-001	-6,16981E-005	0,00000E+000	-3,58005E-001	0,00000E+000	11	...........
	378	15,160000	-5,13422E-003	-3,44192E-001	-5,05078E-005	0,00000E+000	-3,43996E-001	0,00000E+000	11	...........
	385	15,440000	-5,14655E-003	-3,30335E-001	-3,91367E-005	0,00000E+000	-3,30001E-001	0,00000E+000	11	...........
	392	15,719999	-5,15547E-003	-3,16202E-001	-2,65909E-005	0,00000E+000	-3,16005E-001	0,00000E+000	11	...........
	399	16,000000	-5,16126E-003	-3,02574E-001	-1,61373E-005	0,00000E+000	-3,01997E-001	0,00000E+000	11	...........
	406	16,279999	-5,16393E-003	-2,88230E-001	-4,62022E-006	0,00000E+000	-2,88001E-001	0,00000E+000	11	...........
	413	16,559999	-5,16337E-003	-2,74237E-001	8,43292E-006	0,00000E+000	-2,74005E-001	0,00000E+000	11	...........
	420	16,840000	-5,15760E-003	-2,60250E-001	3,15644E-005	0,00000E+000	-2,59997E-001	0,00000E+000	11	...........
	427	17,119999	-5,14399E-003	-2,46304E-001	6,51425E-005	0,00000E+000	-2,46001E-001	0,00000E+000	11	...........
	434	17,400000	-5,11788E-003	-2,32369E-001	1,20622E-004	0,00000E+000	-2,32005E-001	0,00000E+000	11	...........
	441	17,680000	-5,07082E-003	-2,18285E-001	2,13815E-004	0,00000E+000	-2,17997E-001	0,00000E+000	11	...........
	448	17,959999	-4,98884E-003	-2,04235E-001	3,67019E-004	0,00000E+000	-2,04001E-001	0,00000E+000	11	...........
	455	18,240000	-4,85088E-003	-1,90148E-001	6,07689E-004	0,00000E+000	-1,90005E-001	0,00000E+000	11	...........
	462	18,520000	-4,62964E-003	-1,76158E-001	9,54090E-004	0,00000E+000	-1,75997E-001	0,00000E+000	11	...........
	469	18,799999	-4,29429E-003	-1,62458E-001	1,40356E-003	0,00000E+000	-1,62001E-001	0,00000E+000	11	...........
	476	19,080000	-3,81385E-003	-1,48168E-001	1,97654E-003	0,00000E+000	-1,48005E-001	0,00000E+000	11	...........
	483	19,359999	-3,16113E-003	-1,34298E-001	2,63669E-003	0,00000E+000	-1,33997E-001	0,00000E+000	11	...........
	490	19,639999	-2,30364E-003	-1,20335E-001	3,44009E-003	0,00000E+000	-1,20001E-001	0,00000E+000	11	...........
	497	19,920000	-1,23053E-003	-1,06100E-001	3,81948E-003	0,00000E+000	-1,06005E-001	0,00000E+000	11	...........
	504	20,199999	-6,18932E-004	-9,18879E-002	9,46980E-004	0,00000E+000	-9,19969E-002	0,00000E+000	11	...........
	511	20,480000	-5,18955E-004	-7,80979E-002	2,00588E-004	0,00000E+000	-7,80011E-002	0,00000E+000	11	...........
	518	20,760000	-4,77740E-004	-6,41724E-002	1,20754E-004	0,00000E+000	-6,40053E-002	0,00000E+000	11	...........
	525	21,039999	-4,49887E-004	-5,01801E-002	8,73773E-005	0,00000E+000	-4,99970E-002	0,00000E+000	11	...........
	532	21,320000	-4,28516E-004	-3,61622E-002	6,97159E-005	0,00000E+000	-3,60012E-002	0,00000E+000	11	...........
	539	21,600000	-4,10819E-004	-2,21605E-002	5,97002E-005	0,00000E+000	-2,20054E-002	0,00000E+000	11	...........
	546	21,879999	-3,95579E-004	-8,15381E-003	5,20893E-005	0,00000E+000	-7,99710E-003	0,00000E+000	11	...........
	550	22,039999	-3,87684E-004	-1,28716E-003	4,81762E-005	0,00000E+000	5,06639E-007	0,00000E+000	11	...........
CURVE2	TABLE
	Pt	T	Q	Vf	Im	Vu	Sig	ACH	IERange	Over
	#	s	C	V vs. Ref.	A	V	V	V	#	bits
	551	22,080000	1,63596E-006	-2,43223E-003	4,08989E-005	0,00000E+000	-1,99890E-003	0,00000E+000	11	...........
	559	22,400000	9,88826E-006	-1,81508E-002	2,10968E-005	0,00000E+000	-1,79941E-002	0,00000E+000	11	...........
	567	22,719999	1,51440E-005	-3,41633E-002	1,38543E-005	0,00000E+000	-3,40018E-002	0,00000E+000	11	...........
	575	23,039999	1,88701E-005	-5,08866E-002	9,86473E-006	0,00000E+000	-4,99970E-002	0,00000E+000	11	...........
	583	23,359999	2,19026E-005	-6,72816E-002	8,59278E-006	0,00000E+000	-6,60047E-002	0,00000E+000	11	...........
	591	23,680000	2,44329E-005	-8,23508E-002	7,94638E-006	0,00000E+000	-8,19999E-002	0,00000E+000	11	...........
	599	24,000000	2,65404E-005	-9,81567E-002	6,38251E-006	0,00000E+000	-9,79951E-002	0,00000E+000	11	...........
	607	24,320000	2,84029E-005	-1,14241E-001	4,71437E-006	0,00000E+000	-1,14003E-001	0,00000E+000	11	...........
	615	24,639999	2,99043E-005	-1,30893E-001	3,97067E-006	0,00000E+000	-1,29998E-001	0,00000E+000	11	...........
	623	24,959999	3,12174E-005	-1,47313E-001	3,37292E-006	0,00000E+000	-1,46006E-001	0,00000E+000	11	...........
	631	25,279999	3,22045E-005	-1,62372E-001	3,15050E-006	0,00000E+000	-1,62001E-001	0,00000E+000	11	...........
	639	25,599998	3,24264E-005	-1,78157E-001	-1,78815E-007	0,00000E+000	-1,77996E-001	0,00000E+000	11	...........
	647	25,920000	3,18078E-005	-1,94350E-001	-2,92428E-006	0,00000E+000	-1,94004E-001	0,00000E+000	11	...........
	655	26,240000	3,06583E-005	-2,10888E-001	-4,57851E-006	0,00000E+000	-2,09999E-001	0,00000E+000	11	...........
	663	26,559999	2,91300E-005	-2,27267E-001	-5,08590E-006	0,00000E+000	-2,25994E-001	0,00000E+000	11	...........
	671	26,879999	2,71700E-005	-2,42344E-001	-6,64978E-006	0,00000E+000	-2,42002E-001	0,00000E+000	11	...........
	679	27,199999	2,42442E-005	-2,58153E-001	-1,03753E-005	0,00000E+000	-2,57997E-001	0,00000E+000	11	...........
	687	27,519999	1,95220E-005	-2,74712E-001	-1,74718E-005	0,00000E+000	-2,74005E-001	0,00000E+000	11	...........
	695	27,840000	1,27125E-005	-2,90922E-001	-2,55205E-005	0,00000E+000	-2,90000E-001	0,00000E+000	11	...........
	703	28,160000	-1,67929E-006	-3,07319E-001	-7,74759E-005	0,00000E+000	-3,05995E-001	0,00000E+000	11	...........
	711	28,480000	-3,71904E-005	-3,22273E-001	-1,33289E-004	0,00000E+000	-3,22003E-001	0,00000E+000	11	...........
	719	28,799999	-8,95806E-005	-3,38166E-001	-1,87260E-004	0,00000E+000	-3,37998E-001	0,00000E+000	11	...........
	727	29,119999	-1,61176E-004	-3,54716E-001	-2,53471E-004	0,00000E+000	-3,54006E-001	0,00000E+000	11	...........
	735	29,439999	-2,55037E-004	-3,70964E-001	-3,25465E-004	0,00000E+000	-3,70001E-001	0,00000E+000	11	...........
	743	29,760000	-3,71350E-004	-3,87258E-001	-3,94518E-004	0,00000E+000	-3,85996E-001	0,00000E+000	11	...........
	751	30,080000	-5,07849E-004	-4,02224E-001	-4,50005E-004	0,00000E+000	-4,02004E-001	0,00000E+000	11	...........
	759	30,400000	-6,60986E-004	-4,18158E-001	-4,96789E-004	0,00000E+000	-4,17999E-001	0,00000E+000	11	...........
	767	30,719999	-8,27610E-004	-4,34726E-001	-5,37276E-004	0,00000E+000	-4,33994E-001	0,00000E+000	11	...........
	775	31,039999	-1,00610E-003	-4,51018E-001	-5,75622E-004	0,00000E+000	-4,50002E-001	0,00000E+000	11	...........
	783	31,359999	-1,19655E-003	-4,67114E-001	-6,14066E-004	0,00000E+000	-4,65997E-001	0,00000E+000	11	...........
	791	31,679998	-1,39918E-003	-4,82183E-001	-6,47977E-004	0,00000E+000	-4,82005E-001	0,00000E+000	11	...........
	799	32,000000	-1,61324E-003	-4,98148E-001	-6,80269E-004	0,00000E+000	-4,98000E-001	0,00000E+000	11	...........
	807	32,320000	-1,83506E-003	-5,14135E-001	-6,96909E-004	0,00000E+000	-5,13996E-001	0,00000E+000	11	...........
	815	32,639999	-2,05914E-003	-5,30165E-001	-6,95915E-004	0,00000E+000	-5,30003E-001	0,00000E+000	11	...........
	823	32,959999	-2,27941E-003	-5,46784E-001	-6,80165E-004	0,00000E+000	-5,45998E-001	0,00000E+000	11	...........
	831	33,279999	-2,49138E-003	-5,63189E-001	-6,49319E-004	0,00000E+000	-5,62006E-001	0,00000E+000	11	...........
	839	33,599998	-2,69222E-003	-5,78460E-001	-6,10430E-004	0,00000E+000	-5,78001E-001	0,00000E+000	11	...........
	847	33,919998	-2,88131E-003	-5,94119E-001	-5,75080E-004	0,00000E+000	-5,93997E-001	0,00000E+000	11	...........
	855	34,239998	-3,05937E-003	-6,10113E-001	-5,41509E-004	0,00000E+000	-6,10004E-001	0,00000E+000	11	...........
	863	34,559998	-3,22724E-003	-6,26855E-001	-5,12149E-004	0,00000E+000	-6,25999E-001	0,00000E+000	11	...........
	871	34,880001	-3,38610E-003	-6,42924E-001	-4,84577E-004	0,00000E+000	-6,41995E-001	0,00000E+000	11	...........
	879	35,200001	-3,53708E-003	-6,58085E-001	-4,61584E-004	0,00000E+000	-6,58002E-001	0,00000E+000	11	...........
	887	35,520000	-3,68123E-003	-6,74177E-001	-4,41553E-004	0,00000E+000	-6,73998E-001	0,00000E+000	11	...........
	895	35,840000	-3,81937E-003	-6,91016E-001	-4,24663E-004	0,00000E+000	-6,90005E-001	0,00000E+000	11	...........
	903	36,160000	-3,95187E-003	-6,94537E-001	-4,02644E-004	0,00000E+000	-6,94004E-001	0,00000E+000	11	...........
	911	36,480000	-4,07687E-003	-6,78107E-001	-3,81660E-004	0,00000E+000	-6,77996E-001	0,00000E+000	11	...........
	919	36,799999	-4,19593E-003	-6,62309E-001	-3,64937E-004	0,00000E+000	-6,62001E-001	0,00000E+000	11	...........
	927	37,119999	-4,30973E-003	-6,46897E-001	-3,48652E-004	0,00000E+000	-6,46006E-001	0,00000E+000	11	...........
	935	37,439999	-4,41868E-003	-6,31239E-001	-3,35008E-004	0,00000E+000	-6,29998E-001	0,00000E+000	11	...........
	943	37,759998	-4,52308E-003	-6,14274E-001	-3,20064E-004	0,00000E+000	-6,14003E-001	0,00000E+000	11	...........
	951	38,079998	-4,62303E-003	-5,98148E-001	-3,06483E-004	0,00000E+000	-5,97995E-001	0,00000E+000	11	...........
	959	38,399998	-4,71856E-003	-5,82165E-001	-2,92297E-004	0,00000E+000	-5,82000E-001	0,00000E+000	11	...........
	967	38,719997	-4,80974E-003	-5,66902E-001	-2,79598E-004	0,00000E+000	-5,66005E-001	0,00000E+000	11	...........
	975	39,040001	-4,89629E-003	-5,50161E-001	-2,64140E-004	0,00000E+000	-5,49997E-001	0,00000E+000	11	...........
	983	39,360001	-4,97802E-003	-5,34146E-001	-2,48258E-004	0,00000E+000	-5,34002E-001	0,00000E+000	11	...........
[...]
	3493	139,759995	5,39579E-005	-2,86826E-001	-2,33450E-005	0,00000E+000	-2,86001E-001	0,00000E+000	11	...........
	3495	139,839996	5,19577E-005	-2,90165E-001	-2,57707E-005	0,00000E+000	-2,90000E-001	0,00000E+000	11	...........
	3497	139,919998	4,94732E-005	-2,94796E-001	-3,39585E-005	0,00000E+000	-2,93999E-001	0,00000E+000	11	...........
	3499	140,000000	4,54576E-005	-2,99304E-001	-5,64296E-005	0,00000E+000	-2,97998E-001	0,00000E+000	11	...........
QCMDESCRIPTION	LABEL		Description
QCMDB	LABEL	Resonator_db	QCM Database
QCMOFFSETTIME	QUANT	58,025000	QCM Offset Time (s)
CALIBRATIONFACTOR	QUANT	226,000000	Calibration Factor (Hz cm^2/ug)
QCMCurve	DTABLE
	Pt	T	fs	fp	chisq	As	Ap
	#	s	MHz	MHz	arb	Mag	Mag
	216	58,025000	10,01088249	10,01849209	0,000	1,12382233	1,54561317
	220	59,130000	10,01105789	10,01846029	0,000	1,10659432	1,54282165
	224	60,205000	10,01094329	10,01833729	0,000	1,10657215	1,54283428
	228	61,290000	10,01076609	10,01815569	0,000	1,10662389	1,54300368
	232	62,390000	10,01054149	10,01792109	0,000	1,10663557	1,54316044
	236	63,535000	10,01028529	10,01766409	0,000	1,10670614	1,54325545
	240	64,685000	10,01007109	10,01745329	0,000	1,10679352	1,54337597
	244	65,790000	10,00989029	10,01728869	0,000	1,10808504	1,54520333
	248	66,840000	10,00975249	10,01715249	0,000	1,10820460	1,54528880
	252	67,855000	10,00963389	10,01703689	0,000	1,10834074	1,54536664
	256	68,860000	10,00952929	10,01693389	0,000	1,10834134	1,54524910
	260	69,920000	10,00950878	10,01692758	0,000	1,10660589	1,54335237
	264	70,980000	10,00943358	10,01685418	0,000	1,10668397	1,54330862
	268	72,045000	10,00937958	10,01680398	0,000	1,10669041	1,54324722
	272	73,145000	10,00934538	10,01677098	0,000	1,10682428	1,54329121
	276	74,265000	10,00932978	10,01675798	0,000	1,10668862	1,54310822
	280	75,415000	10,00934338	10,01677458	0,000	1,10677505	1,54304647
	284	76,515000	10,00949358	10,01695758	0,000	1,10687041	1,54288065
	288	77,640000	10,01028958	10,01785318	0,000	1,10710490	1,54195714
	292	78,765000	10,01108112	10,01852892	0,000	1,10815132	1,54365695
	296	79,905000	10,01106337	10,01848897	0,000	1,10810947	1,54380918
	300	80,985000	10,01106797	10,01848877	0,000	1,10802567	1,54398036
	304	82,045000	10,01106577	10,01848317	0,000	1,10797834	1,54403818
	308	83,115000	10,01106337	10,01848077	0,000	1,10784757	1,54403734
	312	84,180000	10,01106137	10,01847737	0,000	1,10782683	1,54404473
	316	85,245000	10,01106037	10,01847457	0,000	1,10778189	1,54402089
	320	86,310000	10,01105517	10,01846517	0,000	1,10774529	1,54410255
	324	87,375000	10,01098537	10,01839017	0,000	1,10779262	1,54413188
	328	88,435000	10,01084337	10,01824197	0,000	1,10783231	1,54420948
	332	89,500000	10,01063297	10,01802257	0,000	1,10782909	1,54442251
	336	90,650000	10,01034497	10,01772617	0,000	1,10783696	1,54448712
	340	91,725000	10,01008457	10,01746737	0,000	1,10797858	1,54465890
	344	92,770000	10,00986637	10,01726717	0,000	1,10805559	1,54481685
	348	93,780000	10,00969897	10,01710197	0,000	1,10816920	1,54485977
	352	94,795000	10,00959118	10,01700198	0,000	1,10673881	1,54304457
	356	95,865000	10,00949690	10,01691590	0,000	1,10650480	1,54291368
	360	96,994000	10,00938270	10,01680390	0,000	1,10656571	1,54287410
	364	98,403500	10,00925810	10,01668090	0,000	1,10663116	1,54284394
	368	99,539000	10,00918250	10,01661010	0,000	1,10668337	1,54278302
	372	101,026000	10,00912950	10,01655930	0,000	1,10669863	1,54274821
	376	102,539000	10,00910750	10,01654010	0,000	1,10682738	1,54275274
	380	104,194000	10,00918050	10,01663290	0,000	1,10695970	1,54266715
	384	105,633500	10,00985350	10,01740450	0,000	1,10715544	1,54186499
	388	108,547000	10,01108789	10,01853049	0,000	1,10673165	1,54184115
	392	110,631500	10,01105498	10,01847718	0,000	1,10797167	1,54383934
	396	112,142000	10,01105098	10,01847218	0,000	1,10791385	1,54393804
	400	113,294000	10,01104938	10,01846818	0,000	1,10793388	1,54399991
	404	114,485000	10,01103658	10,01844998	0,000	1,10786819	1,54399657
	408	115,939500	10,01091198	10,01831898	0,000	1,10794437	1,54406536
	412	117,572000	10,01064878	10,01804398	0,000	1,10797131	1,54425478
	416	119,491500	10,01008738	10,01747318	0,000	1,10816407	1,54466152
	420	120,524000	10,00984918	10,01725198	0,000	1,10704768	1,54301226
	424	121,979500	10,00959938	10,01700798	0,000	1,10710704	1,54303360
	428	123,178500	10,00950148	10,01692388	0,000	1,10790443	1,54463887
	432	124,314000	10,00936288	10,01678648	0,000	1,10804021	1,54469585
	436	125,512500	10,00924448	10,01667088	0,000	1,10808456	1,54465544
	440	126,936000	10,00913528	10,01656528	0,000	1,10818756	1,54469502
	444	128,423000	10,00905408	10,01648848	0,000	1,10825658	1,54459286
	448	129,607500	10,00902168	10,01645868	0,000	1,10828066	1,54458249
	452	130,758000	10,00901088	10,01645108	0,000	1,10832560	1,54450023
	456	131,814000	10,00903908	10,01648748	0,000	1,10837650	1,54445589
	460	132,885000	10,00928548	10,01677788	0,000	1,10850847	1,54412878
	464	133,948500	10,01035568	10,01797228	0,000	1,10882759	1,54312003
	468	135,044000	10,01109208	10,01855948	0,000	1,10707617	1,54163361
	472	136,275000	10,01108390	10,01852730	0,000	1,10691977	1,54177690
	476	137,420000	10,01108310	10,01852290	0,000	1,10680532	1,54188669
	480	138,715000	10,01108110	10,01851850	0,000	1,10678387	1,54204905
	484	139,803000	10,01107950	10,01851390	0,000	1,10678613	1,54212356
	488	141,321500	10,01107570	10,01851130	0,000	1,10679960	1,54227924
	492	142,736500	10,01104950	10,01847610	0,000	1,10687876	1,54236460
	496	143,864000	10,01093930	10,01836210	0,000	1,10697770	1,54245830
	500	144,967000	10,01075410	10,01816550	0,000	1,10698891	1,54255795
	504	146,079000	10,01049210	10,01789210	0,000	1,10702777	1,54278767
	508	147,254000	10,01015550	10,01755190	0,000	1,10709107	1,54298997
	512	148,342000	10,00989850	10,01729770	0,000	1,10718203	1,54306042
	516	149,565000	10,00965870	10,01707670	0,000	1,10848522	1,54492664
	520	150,597000	10,00949570	10,01691690	0,000	1,10855651	1,54490554
	524	151,724000	10,00934870	10,01677210	0,000	1,10863304	1,54491413
	528	152,787500	10,00925869	10,01668829	0,000	1,10716426	1,54302490
	532	153,875000	10,00918907	10,01662707	0,000	1,10698700	1,54295456
	536	154,947000	10,00910467	10,01654567	0,000	1,10694504	1,54280770
	540	156,035000	10,00904647	10,01648907	0,000	1,10707581	1,54284370
	544	157,234000	10,00900647	10,01645407	0,000	1,10710895	1,54279995
	548	158,617000	10,00898987	10,01643927	0,000	1,10713601	1,54272211
	552	159,808000	10,00901507	10,01647227	0,000	1,10717607	1,54262924
	556	161,560500	10,00972827	10,01729747	0,000	1,10753393	1,54196060
	560	162,807000	10,01110647	10,01859827	0,000	1,10744715	1,54150069
	564	164,510000	10,01105739	10,01849539	0,000	1,10731769	1,54197729
	568	165,750000	10,01105539	10,01849019	0,000	1,10722136	1,54202843
	572	166,925000	10,01105319	10,01848579	0,000	1,10715234	1,54215622
	576	168,013000	10,01105159	10,01848179	0,000	1,10715592	1,54223061
	580	169,340000	10,01104779	10,01847899	0,000	1,10707736	1,54225481
	584	170,715000	10,01102079	10,01844559	0,000	1,10712790	1,54233408
	588	171,787000	10,01092119	10,01833899	0,000	1,10719240	1,54237533
	592	172,875000	10,01074519	10,01815519	0,000	1,10721302	1,54253602
	596	173,947000	10,01048899	10,01788699	0,000	1,10732925	1,54268849
	600	175,097500	10,01015779	10,01754979	0,000	1,10738289	1,54292691
	604	176,161000	10,00987739	10,01728839	0,000	1,10751987	1,54317522
	608	177,488000	10,00961239	10,01702879	0,000	1,10762060	1,54317355
	612	178,520000	10,00952048	10,01695008	0,000	1,10845649	1,54482400
	616	179,735000	10,00935328	10,01678668	0,000	1,10853231	1,54488015
	620	180,846500	10,00922548	10,01666088	0,000	1,10861480	1,54487574
	624	182,454000	10,00907168	10,01650788	0,000	1,10878158	1,54482317
	628	183,525000	10,00899628	10,01643928	0,000	1,10876882	1,54479861
	632	184,637000	10,00894908	10,01639308	0,000	1,10876739	1,54474092
	636	185,772000	10,00891488	10,01637188	0,000	1,10886562	1,54479992
	640	186,788000	10,00890808	10,01636728	0,000	1,10887980	1,54471076
	644	187,850000	10,00893308	10,01640168	0,000	1,10895145	1,54467177
	648	188,950000	10,00919908	10,01671268	0,000	1,10906863	1,54440618
	652	190,040000	10,01034908	10,01798868	0,000	1,10939586	1,54335105
	656	191,470000	10,01102357	10,01847137	0,000	1,10786855	1,54188216
	660	192,575000	10,01103817	10,01847977	0,000	1,10769403	1,54210126
	664	193,625000	10,01103617	10,01847437	0,000	1,10760188	1,54222322
	668	194,700000	10,01103557	10,01846977	0,000	1,10756242	1,54227316
	672	195,760000	10,01103257	10,01846717	0,000	1,10756052	1,54239941
	676	196,825000	10,01103037	10,01846457	0,000	1,10759473	1,54254377
	680	197,895000	10,01102877	10,01845957	0,000	1,10760581	1,54255414